Folder: Geothermal-Rising-ML-GeoStats-Workshop

File: dfTsite_March.csv
,Local-StructuralSetting,Local-QuaternaryFaultRecency,Local-QuaternaryFaultSlipDilation,Local-QuaternaryFaultSlipRate,QuaternaryFaultDensity,HorizGravityGradient2,GeodeticStrainRate,QuaternarySlipRate,FaultRecency,FaultSlipDilationTendency,Earthquakes,HeatSource-T@3km,HorizMagneticGradient2,GeochemistryTemperature,Heatflow,Tufa_Distance,Travertine_Distance,Silica_Distance,Hillshade-100m,DEM-30m,GravMaxSpotDensity,MagMaxSpotDensity,X_83UTM11,Y_83UTM11,TrainCodeNeg,TrainCodePos,TrainCodePosT130,T37,NAME,MAX_TEMP,THERMOM,MAX_MAXT,Field_Visi,Blind,NmP_power
0,0.833126,0.989053,0.378001,0.502286,-0.560527,1.87731,-0.319882,1.55785,0.118046,-0.0851936,-0.580015,-0.200121,1.06916,5.37794,-0.0547262,0.36977,-0.852258,0.272755,0.158067,-0.374482,1.21697,-1.64585,488078,4319713.766,12,1,1,12,Carlotti Ranch Springs,39,0,39, ,no,0
3,0.774051,0.446678,0.203922,0.796993,0.896988,0.739095,0.819395,0.301331,1.39561,0.353466,0.345153,0.938179,-0.414695,3.66729,1.09836,1.29291,-0.129248,2.17014,0.158067,-1.72599,0.64017,-1.41678,448328,4436713.766,12,1,12,1,Beowawe,216,227,227,yes,no,18.5
6,0.12391,0.0906459,0.318626,0.288235,1.2851,-1.17998,1.3277,-0.875585,-1.59564,0.116588,0.187495,-0.402656,1.1619,-0.186819,0.765071,-0.236884,-0.171032,-0.338912,-1.00169,-0.387379,-1.09022,1.5611,325828,4261213.766,12,1,12,1,Patua Hot Springs,135,182,182,yes,no,48
9,0.344645,0.162797,0.427482,0.768075,-0.653918,3.14133,1.26096,1.75055,1.6537,0.238445,1.35906,0.156964,0.213884,5.37794,1.31261,-1.3134,2.1323,0.137281,-0.0274941,-1.72599,1.6784,1.10296,426828,4423463.766,12,1,1,12,Salt Wells,177,188,188,yes,no,23.6
12,0.150489,0.632429,0.976598,0.363881,-0.758414,2.32817,1.21828,0.584405,0.107538,0.738235,1.56896,-0.216867,0.832158,3.72993,0.842695,1.45844,1.02132,2.6547,-0.0738843,-0.903222,1.56304,1.44656,418578,4312963.766,12,1,12,1,Horseshoe Ranch Spr,58,77,77, ,no,0
15,0.195853,0.009600207,0.199689,0.644958,-1.36053,0.892955,-0.509616,1.16935,-0.0424028,-1.34485,-0.206034,0.0327391,-0.0128165,4.73,-0.309925,1.00856,-1.08998,1.67579,0.204457,-0.374482,0.64017,-0.156912,494828,4311463.766,12,1,1,12,Rawhide-Wedell Hot Spring,62,151,151, ,no,0
18,0.520163,0.872065,0.0734238,0.04113743,0.657756,1.03217,0.877027,-0.467321,-0.368531,1.35307,-0.283636,-0.213457,0.18297,5.37794,0.331408,-1.02821,0.776838,-0.623756,0.343628,-1.4526,1.21697,0.530291,327578,4406463.766,12,1,1,12,Sou Hot Springs,85,85,85, ,no,0
21,0.593458,0.08914046,0.902967,0.434112,-0.142665,1.47847,0.310926,0.433063,1.32765,-0.579596,0.396714,0.699351,-0.929923,5.37794,-0.651118,-1.35165,0.275371,-0.484066,0.343628,-1.38296,1.56304,-1.30225,383578,4455713.766,12,1,1,12,Eleven Mile Canyon,82,0,82, ,yes,0
24,0.770067,0.565761,0.258988,0.306531,0.608711,-0.560495,1.40114,0.161974,-0.941493,0.211144,0.648704,-0.292864,-0.095253,-0.186819,-0.003406736,-0.259409,-1.57398,-1.08733,-0.305835,-0.583399,1.21697,1.44656,311078,4293213.766,12,1,12,1,Jersey Valley Hot Springs,91,130,166, ,no,23.5
27,0.727298,0.835477,0.671464,0.165198,0.530642,0.346868,1.67039,2.10504,0.760399,-0.140574,2.49225,-1.50064,1.21343,5.37794,0.415872,0.318926,1.04228,-0.646175,0.204457,-1.10956,0.755529,-1.18772,356328,4263213.766,12,1,12,1,Soda Lake,216,213,216,yes,yes,26.1
30,0.39786,0.0820692,0.0968435,0.9899,-1.21691,1.63644,1.26016,-0.0957799,0.264404,-1.83077,0.546905,0.165672,1.72866,5.37794,1.46639,-0.832093,-0.604268,-0.384852,0.158067,-1.52223,1.6784,1.5611,351078,4341463.766,12,1,1,12,Bradys,212,193,212,yes,no,26.1
33,0.0985636,0.949381,0.059567,0.72993,1.07097,0.37326,-0.178363,0.0117339,-0.882393,0.652825,-1.20067,-1.24763,1.67713,3.72389,0.196372,1.52049,0.351607,-0.230284,0.0188961,-1.303,0.755529,1.5611,350078,4474713.766,12,1,12,1,Empire - San Emidio,148,190,190,yes,no,11.75
36,0.989785,0.08405464,0.845133,0.486888,2.20565,0.820456,1.00166,-0.71455,1.32624,0.575406,1.25446,0.0561841,0.02840179,5.37794,0.300656,1.33729,-0.736433,-0.712757,0.111677,-1.5016,1.56304,0.988426,295578,4473463.766,12,1,1,12,Bach Well,21,78,78, ,yes,0
39,0.668659,0.950748,0.550409,0.73148,0.925212,1.52111,1.54705,1.70341,1.30477,0.749288,1.08107,0.237832,-0.126167,3.79512,-0.966691,1.11139,-0.696911,1.94757,-2.39339,-0.993495,1.21697,-1.64585,290828,4308213.766,12,1,12,1,Fish Creek Springs,19,45,45,yes,no,0
42,0.230874,0.132698,0.617489,0.880348,0.920171,-0.965694,0.937709,-0.719205,-0.275655,1.35307,-0.206034,-0.008730007,0.419975,-0.186819,-0.193561,-0.869218,0.677815,-0.872207,0.0188961,-1.45518,0.986248,-1.64585,340328,4405213.766,12,1,1,12,Mosquito Ranch Springs,32,73,73,yes,no,0
45,0.575306,0.844541,0.989698,0.862575,0.780414,-0.430909,1.50492,0.761518,1.7383,0.822656,1.3729,-0.664319,-0.775355,4.23003,-0.242575,1.60229,0.677125,0.379978,-0.0738843,-1.66925,0.986248,-1.30225,400578,4373963.766,12,1,12,1,Pirouette Mount (Dixie Valley),87,0,87,yes,yes,0
48,0.895753,0.197554,0.265482,0.128678,1.21543,2.48858,-0.573084,-0.268238,-0.151136,-0.007385101,0.0691245,0.221451,0.203579,3.57952,-1.08652,-0.877156,1.39426,0.232056,0.204457,0.685577,1.44769,1.10296,524578,4297213.766,12,1,12,1,Crescent Valley Hot Sprgs,74,87,87,yes,no,0
51,0.937629,0.010742,0.523441,0.295938,0.578502,-0.784029,1.25213,-0.886896,0.0522636,-0.0808779,0.855712,-1.37758,1.02794,5.37794,-0.433699,1.30598,0.073385,0.360021,0.0652863,-1.48871,0.294092,1.44656,320328,4383713.766,12,1,1,12,Wellington Well,47,83,83, ,yes,0
54,0.241875,0.182386,0.346134,0.264822,0.175912,-1.06972,1.25282,-0.54288,2.06246,-0.748703,1.12036,-0.68545,0.955813,5.37794,-0.905409,1.50322,-0.160719,1.68748,0.111677,-1.6254,-0.97486,-0.271446,366328,4378463.766,12,1,1,12,Bacon Flat,153,0,130,yes,yes,0
57,0.634822,0.65688,0.68864,0.513371,-0.0923807,3.22423,-1.72911,-1.34032,-1.14838,0.537873,-0.871573,0.852866,-0.6517,-0.186819,0.304276,-0.378835,0.457596,-0.429712,0.90031,-0.286789,1.56304,-1.64585,580328,4460713.766,12,1,12,1,Dixie Valley,250,235,250, ,no,70.9
60,0.354106,0.0506231,0.988075,0.793606,-0.669519,-0.723859,0.587287,-1.36226,0.90913,-0.250333,-0.071266,-0.192752,-0.0540348,5.37794,-0.432222,1.45629,-1.20611,1.14395,0.158067,-1.55061,-0.282704,0.301223,341078,4380463.766,12,1,1,12,Big Blue,32,155,155, ,no,0
63,0.499842,0.532932,0.209823,0.195505,-0.422823,-1.17773,-0.687134,2.52199,2.41762,-0.904863,-0.102774,0.848238,0.31693,5.37794,2.16514,-0.977395,0.906782,-0.58011,1.45699,-0.823267,-1.09022,0.988426,533578,4489963.766,12,1,1,12,Wild Rose,151,0,151,yes,yes,0
66,0.0940203,0.24347,0.3289201,0.868021,-0.661649,3.22423,0.782783,2.30422,0.745315,0.974472,0.864712,-0.19056,0.306625,5.37794,-1.21656,-1.14617,0.0526928,-0.748872,-0.0274941,-1.56866,1.6784,0.415757,299828,4503963.766,12,1,1,12,Black Warrior,128,-1,128, ,yes,0
69,0.966466,0.140079,0.968155,0.884882,-1.33834,0.449677,-0.344619,-0.0254834,0.17809,0.389203,-0.0119417,-0.547889,0.275711,4.98041,0.161936,1.12844,0.115065,1.48562,0.297237,-0.227467,1.56304,1.21749,512328,4353213.766,12,1,12,1,Buffalo Valley Hot Spring,79,128,128, ,no,0
72,0.3239,0.0812289,0.9602,0.638913,0.750555,-0.131922,-0.747091,-0.588822,-0.461575,-0.237734,0.345153,-0.132528,-0.126167,2.25805,-1.67404,0.949611,-0.938599,1.52046,0.204457,-0.273893,0.986248,0.18669,612578,4311963.766,12,1,12,1,Tungsten Mountain,97,176,176,yes,yes,37
75,0.679854,0.880686,0.221217,0.724518,2.17341,-0.156645,-0.141914,-0.728853,0.196515,0.508359,-0.711823,0.359316,-0.8784,-0.186819,-0.892474,-1.19615,0.160673,-0.314255,0.0188961,0.559195,0.524811,-0.844115,529828,4323463.766,12,1,12,1,Kyle Hot Springs,96,124,124, ,no,0
78,0.603981,0.281955,0.0984327,0.671797,0.200934,3.22423,0.0426975,0.925116,-0.450002,-0.557711,0.779572,0.804211,-0.095253,-0.186819,-1.67069,0.303269,0.4824,-0.710168,0.204457,-0.949648,1.6784,0.0721558,626328,4262713.766,12,1,1,12,Valley of the Moon,53,56,56, ,no,0
81,0.571859,0.802883,0.130274,0.463422,2.56469,2.42558,1.63209,0.760124,1.29731,0.983591,1.30608,-0.218511,0.842463,-0.186819,0.969911,-0.54354,-1.35609,-0.985975,-0.537786,-0.91096,1.6784,0.759359,392828,4363713.766,12,1,12,1,New York Canyon,75,0,75, ,yes,0
82,0.551491,0.21232,0.512511,0.447997,2.52068,-0.845162,-0.276014,-0.920538,-1.17828,-0.632902,1.0537,-0.9666,-0.589872,5.37794,-1.44892,0.605662,0.698561,-0.0520223,-1.00169,-0.25068,-1.09022,-0.500513,555078,4263713.766,12,1,1,12,Warm Springs Ranch-Newark Valley,23,42,42, ,no,0